Folder: Data_Collection_Preprocessing/02_normalization

Note: README.md
# Data_Collection_Preprocessing
Material created for the 'Data Collection and Preprocessing' course, Indian School of Business, '21

File: deci_norm.csv
Cement (component 1)(kg in a m^3 mixture),Blast Furnace Slag (component 2)(kg in a m^3 mixture),Fly Ash (component 3)(kg in a m^3 mixture),Water  (component 4)(kg in a m^3 mixture),Superplasticizer (component 5)(kg in a m^3 mixture),Coarse Aggregate  (component 6)(kg in a m^3 mixture),Fine Aggregate (component 7)(kg in a m^3 mixture),Age (day),"Concrete compressive strength(MPa, megapascals) "
0.54,0.0,0.0,0.162,0.025,0.104,0.676,0.028,79.9861
0.38,0.095,0.0,0.228,0.0,0.0932,0.594,0.365,43.6983
0.4275,0.0475,0.0,0.228,0.0,0.0932,0.594,0.27,43.013
0.38,0.095,0.0,0.228,0.0,0.0932,0.594,0.09,40.5633
0.38,0.0,0.0,0.228,0.0,0.0932,0.67,0.365,52.5167
0.304,0.076,0.0,0.228,0.0,0.0932,0.67,0.365,55.2601
0.2375,0.2375,0.0,0.228,0.0,0.0932,0.594,0.028,30.0798
0.2375,0.2375,0.0,0.228,0.0,0.0932,0.594,0.365,38.9954
0.2375,0.2375,0.0,0.228,0.0,0.0932,0.594,0.007,26.258
0.1396,0.2094,0.0,0.192,0.0,0.1047,0.8069,0.007,14.5893
0.304,0.076,0.0,0.228,0.0,0.0932,0.67,0.27,54.3783
0.1396,0.2094,0.0,0.192,0.0,0.1047,0.8069,0.36,44.698
0.425,0.1063,0.0,0.1535,0.165,0.08521,0.8871,0.003,33.3982
0.3886,0.0971,0.0,0.1579,0.121,0.08521,0.9257,0.003,28.0961
0.3237,0.2828,0.0,0.1838,0.103,0.09427,0.6599,0.003,28.2961
0.3899,0.189,0.0,0.1459,0.22,0.09447,0.7558,0.003,40.5963
0.425,0.1063,0.0,0.1514,0.186,0.0936,0.8037,0.007,46.8016
0.5313,0.0,0.0,0.1418,0.282,0.08521,0.8937,0.007,46.8982
0.3795,0.1512,0.0,0.1539,0.159,0.11343,0.605,0.007,47.0981
0.3626,0.189,0.0,0.1649,0.116,0.09447,0.7558,0.007,22.8975
0.375,0.0938,0.0,0.1266,0.234,0.08521,0.9926,0.028,56.6956
0.425,0.1063,0.0,0.1535,0.165,0.08521,0.8871,0.028,60.2947
0.3626,0.189,0.0,0.1649,0.116,0.09447,0.7558,0.028,71.2987
0.3379,0.189,0.0,0.1749,0.095,0.09447,0.7558,0.028,49.8974
0.475,0.1188,0.0,0.1811,0.089,0.08521,0.7815,0.056,72.2985
0.3188,0.2125,0.0,0.1557,0.143,0.08521,0.8804,0.056,66.1001
0.2863,0.2009,0.0,0.1447,0.112,0.10046,0.8037,0.056,72.9948
0.374,0.1892,0.0,0.1701,0.101,0.09261,0.7567,0.091,64.9004
0.469,0.1172,0.0,0.1378,0.322,0.08521,0.8405,0.091,70.6989
0.4018,0.0947,0.0,0.1474,0.114,0.09468,0.8521,0.091,75.4976
0.439,0.177,0.0,0.186,0.111,0.08849,0.7079,0.091,73.2982
0.22236,0.0,0.09667,0.18929,0.0446,0.096708,0.87032,0.028,24.8901
0.23381,0.0,0.09458,0.19789,0.04567,0.094704,0.85216,0.056,27.6618
0.19468,0.0,0.10052,0.16562,0.0748,0.10064,0.9059,0.1,37.342
0.21207,0.0,0.12162,0.18031,0.0569,0.10576,0.77932,0.003,12.4726
0.22997,0.0,0.11831,0.19547,0.0463,0.10294,0.75859,0.014,20.0844
0.19034,0.0,0.12518,0.16185,0.0988,0.10881,0.80259,0.028,28.4685
0.16609,0.0,0.16327,0.17646,0.0449,0.10586,0.78009,0.056,28.627
0.16795,0.04208,0.16383,0.12175,0.0572,0.10587,0.78011,0.1,39.2312
0.21376,0.09806,0.02452,0.18174,0.0665,0.1066,0.78552,0.003,13.1828
0.22968,0.0,0.11816,0.19523,0.0613,0.10281,0.75763,0.014,22.3183
0.23805,0.0,0.09411,0.18666,0.07,0.094991,0.84701,0.028,30.2335
0.25,0.0,0.09569,0.18742,0.0553,0.095686,0.86117,0.056,38.328
0.21252,0.0,0.10037,0.15932,0.0871,0.10078,0.90359,0.1,42.9199
0.212,0.0,0.12478,0.159,0.0784,0.10854,0.79954,0.003,19.5191
0.23175,0.0,0.12162,0.17396,0.0672,0.10564,0.77845,0.014,26.7724
0.25137,0.0,0.11827,0.18845,0.0575,0.10284,0.75773,0.028,29.6544
0.25137,0.0,0.11827,0.18845,0.0635,0.10284,0.75773,0.056,36.6388
0.18138,0.0,0.16701,0.16959,0.0756,0.10556,0.7778,0.1,45.3675
0.16888,0.04222,0.12425,0.15833,0.1083,0.10808,0.79615,0.003,7.39808
0.29035,0.0,0.09618,0.16808,0.0941,0.096118,0.865,0.014,34.6737
0.27705,0.0,0.09739,0.1606,0.1183,0.09739,0.87561,0.028,48.284
0.29571,0.0,0.09564,0.17154,0.0887,0.095514,0.8592,0.056,48.7184
0.25181,0.0,0.09994,0.14614,0.1235,0.1006,0.89976,0.1,45.3675
0.25231,0.0,0.09875,0.14625,0.1417,0.098776,0.88901,0.003,21.7805
0.24683,0.0,0.12508,0.1433,0.1199,0.10868,0.80089,0.014,42.2166
0.27507,0.0,0.12135,0.15948,0.099,0.10536,0.7775,0.028,51.3315
0.29716,0.0,0.11754,0.1748,0.0952,0.10228,0.75345,0.056,51.9589
0.21374,0.0,0.17474,0.15479,0.1016,0.10535,0.77635,0.1,50.0766
0.27719,0.09782,0.02446,0.1607,0.1119,0.10617,0.78246,0.003,30.4473
0.21823,0.05464,0.12378,0.14075,0.1191,0.10757,0.79267,0.014,35.9562
0.2149,0.0538,0.12189,0.15563,0.0961,0.10143,0.78058,0.028,52.2002
0.21885,0.0,0.12413,0.15849,0.1133,0.10787,0.79491,0.056,37.2662
0.376,0.0,0.0,0.2146,0.0,0.10035,0.76236,0.1,43.0578
0.516,0.0,0.0,0.162,0.082,0.0801,0.802,0.028,41.36856
0.4501,0.05,0.0,0.2,0.03,0.11244,0.6132,0.028,39.376
0.516,0.0,0.0,0.162,0.0826,0.0801,0.802,0.028,41.36856
0.285,0.19,0.0,0.163,0.076,0.1031,0.685,0.028,53.5792
0.17803,0.1298,0.1186,0.17994,0.0357,0.10073,0.7468,0.003,20.7256
0.19034,0.0,0.12518,0.16661,0.0988,0.1079,0.7989,0.003,12.5485
0.165,0.1285,0.1321,0.17506,0.0808,0.10058,0.7466,0.014,33.088
0.17381,0.09337,0.1599,0.17234,0.0973,0.10072,0.7466,0.014,29.5509
0.165,2e-05,0.14357,0.16381,0.0,0.10056,0.9009,0.028,26.2001
0.167,0.0754,0.167,0.16403,0.0791,0.10073,0.7701,0.028,41.4099
0.25137,0.0,0.11827,0.19294,0.0575,0.10436,0.7543,0.028,33.2741
0.17354,0.05005,0.17353,0.16477,0.0647,0.10062,0.7935,0.056,53.7722
0.19468,0.0,0.10052,0.17017,0.0748,0.0998,0.9018,0.056,43.3887
0.17238,0.01361,0.17237,0.15676,0.0414,0.10063,0.8564,0.1,37.6799
0.2135,0.0,0.17424,0.15921,0.1166,0.10436,0.7719,0.1,52.9587
0.446,0.024,0.079,0.162,0.103,0.0967,0.712,0.028,53.3861
0.446,0.024,0.079,0.162,0.1164,0.0967,0.712,0.007,39.3001
0.387,0.02,0.094,0.157,0.1393,0.0938,0.845,0.028,46.6844
0.387,0.02,0.094,0.157,0.1393,0.0938,0.845,0.007,45.8984
0.355,0.019,0.097,0.145,0.1225,0.0967,0.871,0.028,55.4546
0.491,0.026,0.123,0.201,0.0393,0.0822,0.699,0.003,29.549
0.424,0.022,0.132,0.178,0.0848,0.0822,0.75,0.007,39.0046
0.202,0.011,0.141,0.206,0.0172,0.0942,0.801,0.003,9.84966
0.284,0.015,0.141,0.179,0.0546,0.0842,0.801,0.056,44.5205
0.359,0.019,0.141,0.154,0.1091,0.0942,0.801,0.007,38.6107
0.393,0.0,0.0,0.192,0.0,0.09406,0.7856,0.003,19.1991
0.48,0.0,0.0,0.192,0.0,0.09362,0.7122,0.003,24.4047
0.333,0.0,0.0,0.192,0.0,0.09312,0.8426,0.028,31.9669
0.1588,0.2382,0.0,0.1857,0.0,0.10406,0.7343,0.007,9.6175
0.2728,0.1819,0.0,0.1857,0.0,0.10124,0.7143,0.007,19.7652
0.1588,0.2382,0.0,0.1857,0.0,0.10406,0.7343,0.028,21.0662
0.2958,0.0,0.0,0.1857,0.0,0.10914,0.7693,0.028,25.2169
0.3392,0.0,0.0,0.1857,0.0,0.10692,0.7543,0.007,21.1793
0.1703,0.1555,0.0,0.1857,0.0,0.10266,0.7243,0.028,25.7264
0.1862,0.1241,0.0,0.1857,0.0,0.10834,0.7643,0.007,7.99585
0.3161,0.2107,0.0,0.1857,0.0,0.0977,0.6893,0.007,24.4378
0.339,0.0,0.0,0.197,0.0,0.0968,0.781,0.014,27.0412
0.236,0.0,0.0,0.194,0.0,0.0968,0.885,0.014,12.838
0.277,0.0,0.0,0.191,0.0,0.0968,0.856,0.028,25.9657
0.254,0.0,0.0,0.198,0.0,0.0968,0.863,0.09,26.9447
0.307,0.0,0.0,0.193,0.0,0.0968,0.812,0.028,27.5308
0.225,0.0,0.0,0.181,0.0,0.1113,0.833,0.028,17.3403
0.3,0.0,0.0,0.184,0.0,0.1075,0.795,0.028,26.8482
0.25,0.0,0.0,0.182,0.0,0.11,0.82,0.028,20.8704
0.1413,0.212,0.0,0.2035,0.0,0.09718,0.7485,0.028,29.8922
0.1226,0.1839,0.0,0.2035,0.0,0.09582,0.8001,0.028,24.2909
0.116,0.173,0.0,0.192,0.0,0.09098,0.8919,0.09,31.0237
0.192,0.288,0.0,0.192,0.0,0.09298,0.7161,0.003,12.7884
0.173,0.116,0.0,0.192,0.0,0.09468,0.8568,0.003,6.94095
0.288,0.192,0.0,0.192,0.0,0.0932,0.7178,0.028,38.8044
0.192,0.288,0.0,0.192,0.0,0.09298,0.7161,0.09,50.7323
0.288,0.192,0.0,0.192,0.0,0.0932,0.7178,0.007,23.5235
0.1839,0.1226,0.0,0.2035,0.0,0.09592,0.8,0.007,10.7875
0.2,0.133,0.0,0.192,0.0,0.09654,0.8062,0.007,17.1659
0.116,0.173,0.0,0.192,0.0,0.09098,0.8919,0.003,6.28044
0.153,0.102,0.0,0.192,0.0,0.0888,0.9431,0.007,8.37438
0.2035,0.3053,0.0,0.2035,0.0,0.09634,0.63,0.09,51.8638
0.331,0.0,0.0,0.192,0.0,0.1025,0.821,0.003,14.3066
0.349,0.0,0.0,0.192,0.0,0.1056,0.809,0.007,9.01145
0.296,0.0,0.0,0.186,0.0,0.109,0.769,0.007,18.9123
0.281,0.0,0.0,0.186,0.0,0.1104,0.774,0.007,14.4997
0.5,0.0,0.0,0.2,0.0,0.1125,0.613,0.028,44.092
0.54,0.0,0.0,0.173,0.0,0.1125,0.613,0.27,74.1669
0.35,0.0,0.0,0.203,0.0,0.0974,0.775,0.18,32.7225
0.331,0.0,0.0,0.192,0.0,0.0978,0.825,0.18,38.9968
0.382,0.0,0.0,0.186,0.0,0.1111,0.784,0.007,11.466
0.238,0.0,0.0,0.185,0.0,0.1118,0.789,0.028,17.5403
0.331,0.0,0.0,0.192,0.0,0.0978,0.825,0.028,31.447
0.349,0.0,0.0,0.192,0.0,0.1047,0.806,0.36,42.127
0.5,0.0,0.0,0.2,0.0,0.1125,0.613,0.27,55.15808
0.393,0.0,0.0,0.192,0.0,0.094,0.758,0.028,39.5828
0.31,0.0,0.0,0.192,0.0,0.097,0.85,0.007,14.9892
0.525,0.0,0.0,0.189,0.0,0.1125,0.613,0.007,42.4235
0.322,0.0,0.0,0.203,0.0,0.0974,0.8,0.028,25.1797
0.522,0.0,0.0,0.146,0.0,0.0896,0.896,0.028,74.9874
0.31,0.143,0.111,0.168,0.22,0.0914,0.651,0.028,33.6878
0.31,0.143,0.0,0.168,0.1,0.0914,0.804,0.028,45.2986
0.366,0.187,0.0,0.191,0.07,0.0824,0.757,0.028,65.907
0.298,0.0,0.107,0.186,0.06,0.0879,0.815,0.028,42.6372
0.322,0.149,0.0,0.186,0.08,0.0951,0.709,0.028,52.4209
0.298,0.0,0.107,0.21,0.11,0.088,0.744,0.028,31.8745
0.149,0.139,0.109,0.193,0.06,0.0892,0.78,0.028,23.6904
0.146,0.23,0.0,0.202,0.03,0.0827,0.872,0.028,33.0604
0.14,0.133,0.103,0.2,0.07,0.0916,0.753,0.028,36.4388
0.153,0.145,0.0,0.178,0.08,0.1,0.822,0.028,19.0089
0.143,0.169,0.143,0.191,0.08,0.0967,0.643,0.028,29.7233
0.15,0.237,0.0,0.174,0.12,0.1069,0.675,0.028,37.4317
0.266,0.112,0.087,0.178,0.1,0.091,0.745,0.028,39.4173
0.277,0.117,0.091,0.191,0.07,0.0946,0.666,0.028,43.5749
0.145,0.0,0.179,0.202,0.08,0.0824,0.869,0.028,10.5352
0.136,0.196,0.098,0.199,0.06,0.0847,0.783,0.028,26.9654
0.159,0.209,0.161,0.201,0.07,0.0848,0.669,0.028,30.8816
0.2369,0.0917,0.0715,0.2469,0.06,0.08529,0.6954,0.028,28.6298
0.3133,0.145,0.0,0.1785,0.08,0.08672,0.824,0.028,40.9252
0.1531,0.145,0.113,0.1785,0.08,0.08672,0.824,0.028,26.2332
0.1507,0.0,0.1853,0.1667,0.156,0.10745,0.678,0.028,13.4613
0.284,0.1197,0.0,0.1683,0.072,0.09704,0.7942,0.028,40.9349
0.1548,0.0,0.1428,0.1933,0.091,0.10474,0.6967,0.028,12.4595
0.1457,0.1726,0.0,0.1819,0.034,0.09858,0.8168,0.028,23.7442
0.1552,0.1839,0.1432,0.1938,0.092,0.08796,0.6985,0.028,28.9911
0.1548,0.0,0.1428,0.1933,0.091,0.08772,0.8677,0.028,9.73816
0.1518,0.1781,0.1387,0.1675,0.183,0.0944,0.6946,0.028,36.3499
0.1526,0.2387,0.0,0.2,0.063,0.10018,0.6839,0.028,26.8599
0.3213,0.1642,0.0,0.1905,0.046,0.087,0.774,0.028,57.2182
0.1602,0.188,0.1464,0.2032,0.113,0.08287,0.7097,0.028,35.3143
0.132,0.2065,0.1609,0.1789,0.055,0.08669,0.7356,0.028,33.3065
0.2884,0.121,0.0,0.1774,0.07,0.09079,0.8295,0.028,42.1401
0.3222,0.0,0.1156,0.196,0.104,0.08179,0.8134,0.028,31.1788
0.2609,0.1005,0.0783,0.2006,0.086,0.08645,0.7615,0.028,32.4012

File: minMax_norm.csv
Cement (component 1)(kg in a m^3 mixture),Blast Furnace Slag (component 2)(kg in a m^3 mixture),Fly Ash (component 3)(kg in a m^3 mixture),Water  (component 4)(kg in a m^3 mixture),Superplasticizer (component 5)(kg in a m^3 mixture),Coarse Aggregate  (component 6)(kg in a m^3 mixture),Fine Aggregate (component 7)(kg in a m^3 mixture),Age (day),"Concrete compressive strength(MPa, megapascals) "
1.0,0.0,0.0,0.321357,0.0776398,0.694767,0.20572,0.0741758,79.9861
0.374429,0.317195,0.0,0.848303,0.0,0.380814,0.190667,0.0741758,45.8543
0.0858447,0.582638,0.0,0.560878,0.0,0.715116,0.534119,0.244505,39.358
0.634703,0.0,0.0,0.848303,0.0,0.380814,0.190667,1.0,52.5167
0.220548,0.368392,0.0,0.560878,0.0,0.515698,0.580783,0.491758,41.7195
0.547945,0.105732,0.0,0.848303,0.0,0.380814,0.190667,0.244505,50.4593
0.309361,0.660824,0.0,0.848303,0.0,0.380814,0.0,0.0164835,26.258
0.851598,0.0,0.0,0.848303,0.0,0.380814,0.0,1.0,41.9346
0.374429,0.317195,0.0,0.848303,0.0,0.380814,0.190667,0.491758,48.6956
0.737443,0.295771,0.0,0.253493,0.512422,0.148547,0.735324,0.00549451,33.3982
0.737443,0.295771,0.0,0.253493,0.512422,0.148547,0.735324,0.00549451,33.3982
0.594977,0.525876,0.0,0.344511,0.360248,0.417733,0.405921,0.00549451,35.3012
0.737443,0.295771,0.0,0.236727,0.57764,0.392442,0.526091,0.0164835,46.8016
0.494977,0.591263,0.0,0.271058,0.444099,0.148547,0.718515,0.0164835,33.3982
0.769406,0.492487,0.0,0.512974,0.34472,0.243895,0.28575,0.0164835,56.0958
0.623288,0.260991,0.0,0.0387226,0.726708,0.148547,1,0.0741758,56.6956
0.684475,0.263495,0.0,0.20479,0.354037,0.423837,0.647516,0.0741758,68.4994
0.657306,0.525876,0.0,0.192814,0.68323,0.417733,0.405921,0.0741758,74.4979
0.851598,0.330551,0.0,0.473852,0.276398,0.148547,0.470396,0.151099,72.2985
0.594977,0.525876,0.0,0.344511,0.360248,0.417733,0.405921,0.151099,77.2972
0.594977,0.525876,0.0,0.344511,0.360248,0.417733,0.405921,0.151099,77.2972
0.8379,0.326099,0.0,0.128144,1.0,0.148547,0.618414,0.247253,70.6989
0.633562,0.420701,0.0,0.256687,0.493789,0.968895,0.0275966,0.247253,56.4957
0.274795,0.0,0.483108,0.539242,0.138509,0.482791,0.693226,0.00549451,11.5763
0.300936,0.0,0.472664,0.607904,0.141832,0.424535,0.647667,0.151099,27.6618
0.202466,0.0,0.626687,0.322475,0.241304,0.840116,0.526869,0.0357143,21.0635
0.251301,0.0,0.607796,0.467545,0.176708,0.74593,0.464927,0.271978,39.6104
0.201689,0.0,0.625587,0.32016,0.306832,0.834593,0.523307,0.0741758,28.4685
0.150571,0.117084,0.818741,0.0,0.17764,0.749128,0.466909,0.00549451,7.74971
0.255068,0.272816,0.122489,0.478723,0.213043,0.769767,0.48013,0.151099,50.773
0.291507,0.0,0.590505,0.586667,0.190373,0.660174,0.410512,0.0357143,22.3183
0.310616,0.0,0.470315,0.518244,0.217391,0.432878,0.634747,0.271978,44.2988
0.252329,0.0,0.501599,0.29996,0.270497,0.601163,0.776693,0.0741758,31.6401
0.251142,0.0,0.623588,0.297405,0.243478,0.826744,0.515655,0.00549451,19.5191
0.296233,0.0,0.607796,0.416846,0.208696,0.742442,0.462745,0.151099,42.6992
0.341027,0.0,0.591054,0.532535,0.197205,0.661047,0.410763,0.0357143,24.4281
0.181233,0.0,0.834633,0.381956,0.234783,0.740116,0.461114,0.271978,45.3675
0.152694,0.117474,0.62094,0.292056,0.336335,0.813372,0.50715,0.0741758,31.1161
0.399658,0.0,0.486707,0.31018,0.367391,0.502616,0.706498,0.00549451,23.1388
0.44226,0.0,0.477961,0.397525,0.275466,0.448081,0.665329,0.151099,48.7184
0.335845,0.0,0.493503,0.290299,0.397516,0.542907,0.740115,0.0357143,28.6822
0.343174,0.0,0.493503,0.195609,0.440062,0.542907,0.740115,0.271978,60.9497
0.395137,0.0,0.606447,0.301238,0.307453,0.734302,0.460361,0.0741758,51.3315
0.255114,0.0,0.873263,0.263792,0.315528,0.734012,0.457476,0.00549451,17.5747
0.254566,0.0,0.870765,0.262355,0.362112,0.730523,0.455294,0.151099,51.4349
0.265365,0.152031,0.618591,0.151697,0.369876,0.798547,0.498419,0.0357143,35.9562
0.257763,0.149694,0.609145,0.270499,0.298447,0.620058,0.468088,0.271978,56.6336
0.625571,0.0,0.0,0.741317,0.0,0.588663,0.422378,0.0741758,31.971
0.945205,0.0,0.0,0.321357,0.254658,0.0,0.521826,0.0741758,41.36856
0.527397,0.0486923,0.814593,0.361277,0.555901,0.56686,0.145509,0.0741758,47.2774
0.3379,0.500835,0.474763,0.297405,0.293478,0.171512,0.516809,0.0741758,67.8651
0.173584,0.361157,0.592704,0.464591,0.11087,0.599709,0.383342,0.00549451,20.7256
0.254566,0.0,0.870765,0.299082,0.362112,0.705233,0.446312,0.00549451,15.6097
0.163333,0.13926,0.867216,0.343473,0.200932,0.596512,0.500502,0.0357143,33.0052
0.143836,5.56483e-05,0.717491,0.335808,0.0,0.594767,0.769945,0.0741758,26.2001
0.201689,0.0,0.625587,0.358164,0.306832,0.80814,0.514049,0.0741758,24.8487
0.149201,0.361436,0.642779,0.428822,0.241925,0.596802,0.38284,0.151099,51.7245
0.211598,0.0,0.502349,0.386587,0.232298,0.572674,0.772203,0.151099,43.3887
0.148402,0.209794,0.834583,0.337565,0.245652,0.599709,0.441796,0.271978,56.8128
0.785388,0.066778,0.394803,0.321357,0.361491,0.482558,0.296036,0.0741758,44.4229
0.785388,0.066778,0.394803,0.321357,0.361491,0.482558,0.296036,0.0164835,39.3001
0.650685,0.0556483,0.469765,0.281437,0.44472,0.398256,0.629704,0.00549451,22.7527
0.650685,0.0556483,0.469765,0.281437,0.360559,0.398256,0.629704,0.151099,61.4599
0.888128,0.0723428,0.614693,0.632735,0.12205,0.0610465,0.263422,0.00549451,29.549
0.73516,0.0612131,0.65967,0.369261,0.277019,0.0610465,0.39137,0.00549451,32.1099
0.415525,0.0417362,0.704648,0.457086,0.169565,0.119186,0.519318,0.00549451,13.3955
0.586758,0.0528659,0.704648,0.257485,0.33882,0.409884,0.519318,0.0164835,38.6107
0.664384,0.0,0.0,0.560878,0.0,0.405814,0.480682,0.0741758,39.6049
0.426941,0.0,0.0,0.560878,0.0,0.326163,0.755896,0.0164835,14.5969
0.12968,0.662771,0.0,0.510579,0.0,0.696512,0.351982,0.0164835,9.6175
0.271233,0.409572,0.0,0.510579,0.0,0.738372,0.37707,0.0741758,25.745
0.673516,0.0,0.0,0.510579,0.0,0.696512,0.351982,0.0164835,25.4479
0.541553,0.0,0.0,0.510579,0.0,0.779651,0.402158,0.0164835,21.1793
0.287671,0.951864,0.0,0.510579,0.0,0.45,0.201455,0.0164835,21.9171
0.640411,0.0,0.0,0.510579,0.0,0.717442,0.364526,0.0741758,37.4379
0.541096,0.0,0.0,0.600798,0.0,0.485465,0.469142,0.0357143,27.0412
0.305936,0.0,0.0,0.576846,0.0,0.485465,0.730055,0.244505,21.946
0.399543,0.0,0.0,0.552894,0.0,0.485465,0.657301,0.986264,33.7016
0.468037,0.0,0.0,0.568862,0.0,0.485465,0.546914,0.0741758,27.5308
0.509132,0.0,0.0,0.497006,0.0,0.761628,0.47416,0.0741758,30.5714
0.680365,0.0,0.0,0.520958,0.0,0.651163,0.378826,0.0164835,30.1439
0.089726,0.589872,0.0,0.652695,0.0,0.496512,0.387607,0.0741758,29.8922
0.223744,0.370061,0.0,0.560878,0.0,0.477907,0.532363,0.00549451,11.4143
0.338356,0.464107,0.0,0.652695,0.0,0.513372,0.251129,0.0164835,19.3501
0.1621,0.32276,0.0,0.560878,0.0,0.423837,0.659308,0.00549451,6.94095
0.0,0.42571,0.0,0.560878,0.0,0.25,0.873056,0.0741758,17.2755
0.0143836,0.451864,0.0,0.652695,0.0,0.398837,0.639739,0.00549451,2.33181
0.186986,0.341124,0.0,0.652695,0.0,0.459884,0.516809,0.0164835,10.7875
0.338356,0.464107,0.0,0.652695,0.0,0.513372,0.251129,0.00549451,9.73126
0.205479,0.801336,0.0,0.560878,0.0,0.374419,0.306322,0.0164835,21.4806
0.231735,0.849471,0.0,0.652695,0.0,0.472093,0.0903161,0.244505,51.8638
0.522831,0.0,0.0,0.560878,0.0,0.651163,0.569493,0.0741758,31.7435
0.310502,0.0,0.0,0.512974,0.0,0.924419,0.489212,0.0164835,12.052
0.408676,0.0,0.0,0.512974,0.0,0.880814,0.451581,0.0164835,14.4997
1.0,0.0,0.0,0.409182,0.0,0.94186,0.0476668,0.0357143,59.7638
0.56621,0.0,0.0,0.648703,0.0,0.502907,0.454089,0.151099,29.9784
0.522831,0.0,0.0,0.560878,0.0,0.514535,0.579528,0.491758,38.9968
0.541096,0.0,0.0,0.50499,0.0,0.77907,0.401405,0.0164835,21.16
0.522831,0.0,0.0,0.560878,0.0,0.226744,0.579528,0.00549451,13.5206
0.563927,0.0,0.0,0.560878,0.0,0.715116,0.531862,0.986264,42.127
0.342466,0.0,0.0,0.50499,0.0,0.901163,0.476668,0.0164835,13.7137
0.342466,0.0,0.0,0.512974,0.0,0.901163,0.476668,0.0164835,11.466
0.965753,0.0,0.0,0.536926,0.0,0.94186,0.0476668,0.0164835,42.4235
0.456621,0.0,0.0,0.648703,0.0,0.502907,0.559458,0.0741758,21.753
0.10274,0.319978,0.444778,0.640719,0.279503,0.171512,0.589563,0.0741758,19.9879
0.474886,0.397885,0.0,0.369261,0.310559,0.328488,0.526844,0.0741758,45.2986
0.342466,0.269894,0.37981,0.576846,0.248447,0.0988372,0.569493,0.0741758,33.3982
0.579909,0.0,0.709645,0.568862,0.341615,0.0,0.461616,0.0741758,40.8652
0.447489,0.0,0.534733,0.704591,0.341615,0.229651,0.376317,0.0741758,31.8745
0.363014,0.278242,0.389805,0.632735,0.279503,0.18314,0.418966,0.0741758,32.3985
0.114155,0.0,0.55972,0.497006,0.248447,0.555233,0.556949,0.0741758,12.1761
0.116438,0.40345,0.0,0.449102,0.248447,0.578488,0.572002,0.0741758,19.0089
0.481735,0.447969,0.0,0.449102,0.310559,0.337209,0.413949,0.0741758,52.4415
0.121005,0.509182,0.0,0.568862,0.279503,0.22093,0.687406,0.0741758,23.7869
0.399543,0.325543,0.454773,0.552894,0.217391,0.421512,0.180632,0.0741758,43.5749
0.0776256,0.450751,0.629685,0.401198,0.310559,0.354651,0.426493,0.0741758,29.0683
0.107306,0.42571,0.969515,0.560878,0.248447,0.389535,0.0727546,0.0741758,24.5798
0.307991,0.255147,0.357321,0.999202,0.186335,0.150872,0.25439,0.0741758,28.6298
0.116667,0.40345,0.564718,0.453094,0.248447,0.584012,0.237582,0.0741758,25.5596
0.365068,0.307457,0.430285,0.588024,0.15528,0.273837,0.347717,0.0741758,33.7188
0.415525,0.333055,0.0,0.371657,0.223602,0.492442,0.502258,0.0741758,40.9349
0.0746575,0.0,0.828086,0.466667,0.310559,0.465116,0.529102,0.0741758,13.2938
0.447717,0.0,0.537231,0.334132,0.397516,0.442442,0.476668,0.0741758,35.8659
0.120548,0.0,0.713643,0.571257,0.282609,0.221512,0.686653,0.0741758,9.73816
0.0949772,0.0,0.874063,0.292615,0.555901,0.411919,0.62845,0.0741758,15.4236
0.0910959,0.46355,0.648176,0.413174,0.338509,0.237209,0.47993,0.0741758,44.6119
0.132877,0.523094,0.731634,0.650299,0.350932,0.0805233,0.290266,0.0741758,35.3143
0.142009,0.0,1.0,0.474651,0.391304,0.140407,0.632213,0.0741758,15.0913
0.146119,0.722593,0.0,0.490619,0.39441,0.168023,0.584044,0.0741758,37.917
0.362785,0.279633,0.391304,0.629541,0.267081,0.184593,0.420221,0.0741758,32.4012