Folder: Data_Collection_Preprocessing/02_normalization (part 2)

File: z_score_norm.csv
Cement (component 1)(kg in a m^3 mixture),Blast Furnace Slag (component 2)(kg in a m^3 mixture),Fly Ash (component 3)(kg in a m^3 mixture),Water  (component 4)(kg in a m^3 mixture),Superplasticizer (component 5)(kg in a m^3 mixture),Coarse Aggregate  (component 6)(kg in a m^3 mixture),Fine Aggregate (component 7)(kg in a m^3 mixture),Age (day),"Concrete compressive strength(MPa, megapascals) "
2.47792,-0.856886,-0.847132,-0.916663,-0.620225,0.86316,-1.21766,-0.279733,79.9861
1.85565,-0.856886,-0.847132,2.17537,-1.03894,-0.526514,-2.24091,-0.279733,39.2898
0.946178,0.244726,-0.847132,2.17537,-1.03894,-0.526514,-2.24091,0.702224,40.5633
0.58239,-0.416241,-0.847132,2.17537,-1.03894,-0.526514,-1.29253,2.12764,52.1244
-0.418027,1.89715,-0.847132,2.17537,-1.03894,-0.526514,-2.24091,-0.279733,30.0798
1.40091,-0.30608,-0.847132,2.17537,-1.03894,-0.526514,-2.24091,-0.612331,35.0764
-1.35526,1.5713,-0.847132,0.488805,-1.03894,0.953232,0.415805,-0.612331,14.5893
-0.872763,1.34634,-0.847132,2.17537,-1.03894,-0.526514,-1.29253,3.55307,50.6551
1.37698,0.37576,-0.847132,-1.31488,1.7246,-1.55462,1.4166,-0.675683,33.3982
0.360288,1.60725,-0.847132,-1.21181,1.35613,-1.55462,1.33299,-0.675683,25.2003
1.04095,1.33474,-0.847132,-1.67093,2.64578,-0.363099,-0.221858,-0.675683,40.5963
1.79821,0.502156,-0.847132,-2.05041,4.35416,-1.55462,0.835089,-0.612331,54.8961
0.941392,0.896417,-0.847132,-1.29614,1.62411,2.07655,-2.10365,-0.612331,47.0981
0.307634,2.18356,-0.847132,-0.284203,0.401449,0.951945,-2.01879,-0.279733,59.7983
1.37698,0.37576,-0.847132,-1.31488,1.7246,-1.55462,1.4166,-0.279733,60.2947
1.51101,1.19559,-0.847132,0.207711,0.820168,-1.13257,-0.819588,-0.279733,65.9966
1.85565,0.520709,-0.847132,-0.0218484,0.451695,-1.55462,0.0988453,0.163731,72.2985
0.407197,2.42244,-0.847132,0.104644,0.686178,-0.388833,-1.41857,0.163731,80.1998
0.888738,1.33706,-0.847132,-0.537187,0.65268,-0.602431,-0.210627,0.718062,64.9004
2.39463,-0.856886,-0.847132,-1.86301,3.68421,-1.55462,1.49896,0.718062,59.1984
1.51101,1.19559,-0.847132,0.207711,0.820168,-1.13257,-0.819588,0.718062,73.2982
-0.453353,-0.856886,0.63148,0.764745,-0.274028,-0.332989,0.980591,-0.675683,10.3835
-0.827959,-0.856886,0.724343,-0.74707,0.213863,0.430817,1.6512,0.860604,37.342
-0.661478,-0.856886,1.05421,-0.0588591,-0.0859398,1.08963,0.0716417,0.163731,34.2049
-0.869508,-0.856886,1.10986,-0.923691,0.615833,1.48208,0.362021,-0.279733,28.4685
-1.08386,-0.36893,1.7141,-2.80233,-0.0809152,1.10378,0.0814999,-0.501465,17.823
-0.645299,0.28021,-0.4638,0.00813489,0.0748483,1.19771,0.14901,-0.675683,13.1828
-0.492891,-0.856886,1.00012,0.640127,-0.0122453,0.710039,-0.199021,0.860604,40.8583
-0.29836,-0.856886,0.648833,0.274237,-0.112738,-0.206632,1.09302,0.163731,38.328
-0.656692,-0.856886,0.72231,-1.04081,0.697902,0.397362,1.62487,-0.279733,37.4041
-0.473074,-0.856886,1.05421,-0.35635,0.0865724,1.07418,0.0607852,-0.501465,26.7724
-0.285245,-0.856886,1.00184,0.322491,0.024602,0.713899,-0.197774,-0.675683,13.1207
-0.955285,-0.856886,1.76381,-0.56108,0.227262,1.06389,0.0526741,0.860604,45.3675
-1.07495,-0.367306,1.09532,-1.0886,0.774946,1.38815,0.281658,0.163731,39.1484
-0.0394005,-0.856886,0.67541,-0.982252,0.942434,0.0126281,1.27322,-0.279733,48.284
-0.281032,-0.856886,0.715275,-1.65969,1.02953,0.42567,1.57458,-0.501465,33.3568
-0.276246,-0.856886,0.696671,-1.65453,1.33436,0.19097,1.44043,-0.675683,21.7805
-0.328708,-0.856886,1.1083,-1.79274,0.969232,1.46535,0.340807,0.860604,66.4241
0.15312,-0.856886,0.990424,-0.316997,0.555538,0.641842,-0.251182,0.163731,51.9589
-0.647788,-0.856886,1.87684,-1.26288,0.913961,1.02143,0.0237235,-0.279733,45.9398
-0.602506,-0.223285,1.08798,-1.9122,0.955833,1.32252,0.238232,-0.501465,35.9562
-0.596571,-0.856886,1.09345,-1.0811,0.85869,1.36113,0.266185,-0.675683,15.3408
0.907885,-0.856886,-0.847132,1.54759,-1.03894,0.393502,-0.139997,0.860604,43.0578
2.28645,-0.856886,-0.847132,-0.307627,-0.168009,-1.32429,0.392095,-0.279733,51.0212
2.24816,-0.856886,-0.847132,-0.916663,0.344503,-2.21214,0.354659,-0.279733,41.36856
2.09498,-0.856886,-0.847132,-1.432,0.468444,0.773089,-1.47971,-0.279733,69.837
-0.869508,-0.856886,1.10986,-0.70069,0.615833,1.36499,0.315975,-0.675683,12.5485
-1.04145,-0.699066,1.84761,-1.16215,-0.345546,0.42953,1.0335,-0.501465,29.7509
-1.1121,-0.856654,1.39736,-0.831867,-1.03894,0.420523,1.5888,-0.279733,26.2001
-0.29836,-0.856886,0.648833,0.481309,-0.146235,-0.309056,1.04348,-0.279733,27.2205
-1.03034,-0.27651,1.86574,-0.786892,0.0447005,0.428244,0.24859,0.163731,53.7722
-1.1121,0.63319,1.21805,-0.304816,0.314356,0.423097,-0.336662,0.860604,55.0202
-0.647788,-0.856886,1.87684,-1.04737,0.913961,0.909483,-0.0209503,0.860604,52.9587
1.57802,-0.578584,0.387911,-0.916663,0.910611,-0.0761566,-0.768425,-0.675683,23.3457
1.01319,-0.624968,0.622413,-1.15091,1.29416,-0.44931,0.891243,-0.279733,46.6844
1.01319,-0.624968,0.622413,-1.15091,1.29416,-0.44931,0.891243,0.163731,47.9668
2.00882,-0.555392,1.07578,0.910446,-0.380718,-1.94192,-0.930648,-0.675683,29.549
1.36741,-0.601776,1.21648,-0.63557,0.455045,-1.94192,-0.294234,-0.612331,40.2851
0.0271345,-0.682947,1.35718,-0.120231,-0.124462,-1.68458,0.34218,0.163731,44.5205
1.48229,-0.856886,-0.847132,1.70688,-1.03894,-1.7309,-0.672339,-0.279733,23.849
1.90352,-0.856886,-0.847132,0.488805,-1.03894,-0.472471,-0.765929,-0.675683,24.4047
0.49623,-0.856886,-0.847132,0.488805,-1.03894,-0.536808,0.861294,0.702224,41.6802
-0.0800873,1.25241,-0.847132,0.193657,-1.03894,0.508021,-0.739724,-0.612331,19.7652
-0.743522,0.71668,-0.847132,0.193657,-1.03894,1.32896,-0.178182,-0.612331,11.9576
0.555585,-0.856886,-0.847132,0.193657,-1.03894,1.23889,-0.240576,-0.612331,21.1793
0.0864894,1.38692,-0.847132,0.193657,-1.03894,0.325305,-0.864511,-0.279733,33.0431
0.33444,1.58637,-0.847132,0.193657,-1.03894,0.0525169,-1.05169,-0.612331,24.4378
0.55367,-0.856886,-0.847132,0.72305,-1.03894,-0.0632893,0.0926059,2.12764,36.4457
-0.0398791,-0.856886,-0.847132,0.441956,-1.03894,-0.0632893,1.02851,-0.279733,25.9657
0.247322,-0.856886,-0.847132,0.535654,-1.03894,-0.0632893,0.479446,2.12764,34.4876
-0.537695,-0.856886,-0.847132,-0.0265333,-1.03894,1.80248,0.741499,-0.279733,17.3403
1.13765,-0.856886,-0.847132,0.25456,-1.03894,0.67015,-0.356628,-0.279733,43.699
-1.33899,1.60145,-0.847132,1.02757,-1.03894,-0.0143933,-0.312952,-0.279733,29.8922
-1.65491,1.02629,-0.847132,1.02757,-1.03894,-0.446736,0.941158,-0.279733,20.594
-0.853616,2.48274,-0.847132,0.488805,-1.03894,-0.554822,-0.717262,-0.675683,12.7884
-0.93116,0.564774,-0.847132,1.02757,-1.03894,-0.176522,0.329701,0.702224,32.5329
-0.853616,2.48274,-0.847132,0.488805,-1.03894,-0.554822,-0.717262,0.702224,50.7323
-1.22698,0.325898,-0.847132,0.488805,-1.03894,-1.09268,2.1154,-0.279733,17.9643
-0.777029,0.685371,-0.847132,0.488805,-1.03894,-0.0967444,0.407069,-0.612331,17.1659
0.231047,1.50288,-0.847132,1.02757,-1.03894,-0.0967444,-1.7792,0.702224,54.5989
-0.743522,2.68335,-0.847132,1.02757,-1.03894,-0.122479,-1.79168,0.702224,51.8638
0.477083,-0.856886,-0.847132,0.488805,-1.03894,0.67015,0.591754,0.702224,37.9143
0.142015,-0.856886,-0.847132,0.207711,-1.03894,1.50653,-0.0571386,-0.612331,18.9123
2.09498,-0.856886,-0.847132,0.863597,-1.03894,1.95689,-2.00382,-0.675683,26.0622
2.47792,-0.856886,-0.847132,-0.401325,-1.03894,1.95689,-2.00382,3.55307,74.1669
0.994045,-0.856886,-0.847132,0.207711,-1.03894,-0.089024,-0.132011,-0.612331,23.2216
0.965325,-0.856886,-0.847132,0.207711,-1.03894,1.77674,0.130042,-0.612331,11.466
0.142015,-0.856886,-0.847132,0.488805,-1.03894,1.44219,-0.107053,0.702224,29.3924
0.649404,-0.856886,-0.847132,0.488805,-1.03894,0.953232,0.404574,4.97849,42.127
-0.279213,-0.856886,-0.847132,0.160862,-1.03894,1.77674,0.130042,-0.279733,19.6914
0.276042,-0.856886,-0.847132,0.488805,-1.03894,-0.0375546,0.953637,-0.612331,14.9892
2.33432,-0.856886,-0.847132,0.348258,-1.03894,1.95689,-2.00382,0.702224,58.7847
2.3056,-0.856886,-0.847132,-1.66625,-1.03894,-0.989739,1.52766,-0.279733,74.9874
0.888738,-0.856886,-0.847132,0.395107,0.133469,0.515742,-0.543808,-0.279733,39.0519
0.812151,1.31155,-0.847132,0.441956,0.133469,-1.91619,-0.206883,-0.279733,65.907
0.429216,1.06804,-0.847132,-0.354476,0.468444,-1.16988,0.204914,-0.279733,61.2324
0.161162,-0.856886,0.825647,1.33209,0.803419,-1.19562,-0.369106,-0.279733,31.8745
-0.422814,0.209939,0.262843,3.0655,-0.0340187,-1.54303,-0.980563,-0.279733,28.627
-1.35143,0.685371,0.763114,0.863597,0.133469,-0.732392,-0.256798,-0.279733,36.4388
-1.24612,-0.856886,2.04506,-0.682419,1.64086,1.30065,-1.1927,-0.279733,13.4586
-1.2557,1.89135,-0.847132,-0.354476,0.970907,1.23631,-1.23014,-0.279733,37.4317
-1.29399,1.14921,-0.847132,0.0203156,-0.536481,0.168323,0.541839,-0.279733,23.7387
-1.30356,-0.856886,1.95126,0.957295,0.300957,-1.91619,1.19073,-0.279733,10.5352
-1.18868,1.62464,1.52915,0.863597,0.468444,-1.98052,-0.868255,-0.279733,33.0535
-0.423771,0.20646,0.27066,3.06081,-0.0340187,-1.54432,-0.975572,-0.279733,28.6298
-1.35239,0.680733,0.767804,0.877651,0.200464,-0.732392,-0.251806,-0.279733,36.4436
-1.249,-0.856886,2.04975,-0.696473,1.57386,1.30708,-1.1927,-0.279733,13.4613
-1.2557,1.88903,-0.847132,-0.363846,0.954158,1.24017,-1.23263,-0.279733,37.4317
-1.29686,1.14457,-0.847132,0.0156307,-0.469486,0.16575,0.539344,-0.279733,23.7442
-1.29973,-0.856886,1.94969,0.94324,0.267459,-1.91619,1.18699,-0.279733,10.5359
-1.23847,1.20835,1.32123,-0.658994,2.02608,-0.372106,-0.985554,-0.279733,36.3499
-1.24708,-0.856886,2.02786,-0.701158,0.903912,0.235233,-0.0172067,-0.279733,15.5697
-1.15805,1.32315,1.44161,1.01351,0.853666,-1.85571,-0.797126,-0.279733,35.3143
0.312421,-0.856886,0.913195,-0.546557,0.65268,-0.612725,0.116315,-0.279733,38.461
0.392837,-0.856886,0.960095,0.676201,0.702927,-1.99468,0.496916,-0.279733,31.1788
-0.19401,0.308504,0.376967,0.891706,0.401449,-1.39506,-0.150729,-0.279733,32.4012